Folder: atmos2021/CLIMA/IO/compare_w_benjamin

Note: CLIMA/IO/README
Hi!  You are probably wanting to run Clima and wondering what files to start with and what files are 
necessary as inputs to the model.  Read on...

Here are the input files you will want to know about as a newbie Clima user:
(this document is a work in progress because *I* am not familiar with all of these variable 
names enough to be comfortable describing them here... :p)


---------------------------------------------------
---------------input_clima.dat---------------------   
This file has all the basic, important info for your Clima run.  It's analagous
to input_photochem.dat in the photochemical model, but it's got a lot more lines
in it becase, unlike Photo, clima has fewer input files.  Just about everything
the model wants to know is consolidated here in this file.

*NSTEPS : number of steps the model will run. If you've run the photochemical model,
	you know that it runs until convergence happens.  Clima is different: YOU
	specify how many steps it will take and then YOU check the output files
	to see if it has converged.
*IMW : type of water profile in the atmosphere. They are:
        0 - saturated troposphere (good for hot atmospheres)
	1 - Manabe/Wetherald fixed relative humidity 
	2 - M/W with constant stratospheric H2O content and empirical troposphere H2O (start with this if you're unsure)
	3 - dry adiabat (good for atmospheres without a lot of water in them)
*RSURF : surface relative humidity (set to 0.8 if you're unsure)
*ZY : solar zenith angle (0 is straight overhead; set to 60 if unsure, 
      that approximates average flux at quadrature)
*DTAU0: OPTICAL DEPTH STEP IN SUBLEVEL INTEGRATION (somebody else explain this?)
*ZCON: ARBITRARY CONSTANT ADDED TO Z TO KEEP IT POSITIVE
*P0: lowest pressure at the top of the grid (bars)
*PGO: pressure at ground level (bars). Note that if ICOUPLE=1 (see below), it will read this in		
      from the photochemical model regardless of what you set here.
*G: gravitational acceleration (cm/s^2)
*FAC:  RATIO OF GRID SPACING AT TOP TO SPACING AT BOTTOM (set to 4 if unsure)
*IO3: Set to 1 if you want to include ozone, 0 if not
*IUP: This sets clima's initial conditions.  Unlike Photo, clima does not *require*
      you to give it initial conditions. If you set IUP to 1, it will generate its own
      initial conditions and start a new run from scratch.  If IUP = 0, it will read
      in the contents of TempIn.dat as its initial conditions. (clima generates TempOut.dat
      after each run.  Copy that file to TempIn.dat if you want to use it as your ICs)
*TG0: If you set IUP=1 (new run from scratch), set an initial surface temperature here (try something between 270-300 K if unsure)
*TSTRAT: Stratospheric temperature for IUP=1 (try 200 K if unsure)
*STARR: The type of star your planet is orbiting.  There is a WHOLE SYSTEM of stellar naming in the model
        allowing you to create just about any type of star you want! Note that quotes around the star name
	are necessary. NOTE: Model ignores w

File: FTIR.dat
   20        89.064
   1154        180178
   4745        191479
   130        4645.61
   1312.5        196666
   5647.5        203791
   250        19005.1
   1500        204593
   6690        208846
   355        38868.4
   1700        208102
   7982.5        210945
   467.5        69842.1
   1900        210103
   9100        211780
   581        99728.9
   2125        211784
   10025        212095
   693.5        109536
   2445.5        212103
   11545        212201
   837.5        146861
   2941.5        212227
   13045        212236
   970        179192
   3592.5        212228
   14735        212228
   1086.5        193040
   4285        212206
   70        1347.82
   1237.5        205928
   5160        212174
   190        10714.7
   1400        207881
   6157.5        212136
   305        28416.4
   1600        209235
   7320        212099
   410        54564.5
   1800        210072
   8582.5        212064
   520        84775.7
   2000        211156
   9500        212028
   642        105244
   2298.5        211871
   10810        212001
   760        124390
   2645        211964
   12330        211963
   907.5        165510
   3256        211943
   13885        211933
   1032.5        185909
   3895        211905
   20        92.648
   1154        203690
   4745        211875
   130        4800.43
   1312.5        206190
   5647.5        211845
   250        19448.2
   1500        208348
   6690        211814
   355        39308.3
   1700        209371
   7982.5        211781
   467.5        70051.9
   1900        210286
   9100        211736
   581        99871
   2125        211464
   10025        211604
   693.5        110763
   2445.5        211575
   11545        211635
   837.5        147479
   2941.5        211615
   13045        211622
   970        178953
   3592.5        211529
   14735        211618
   1086.5        192556
   4285        211587
   70        1358.88
   1237.5        205280
   5160        211586
   190        10808.5
   1400        207329
   6157.5        211506
   305        28491
   1600        208743
   7320        211529
   410        54442.5
   1800        209536
   8582.5        211475
   520        84425.5
   2000        210653
   9500        211504
   642        105338
   2298.5        211248
   10810        211419
   760        124643
   2645        211310
   12330        211299
   907.5        165264
   3256        211319
   13885        211341
   1032.5        185585
   3895        211423
   20        92.2903
   1154        203143
   4745        211473
   130        4803.64
   1312.5        205847
   5647.5        211497
   250        19335.6
   1500        208128
   6690        211416
   355        38928.2
   1700        209139
   7982.5        211421
   467.5        69404.4
   1900        209972
   9100        211517
   581        99267.3
   2125        211181
   10025        211420
   693.5        110508
   2445.5        211342
   11545        211413
   837.5        147281
   2941.5        211504
   13045        211411
   970        178706
   3592.5        211417
   14735        211513
   1086.5        192365
   4285        211408
   70        1354.71
   1237.5        205152
   5160        211402
   190        10757.6
   1400        207311
   6157.5        211505
   305        28264.6
   1600        208666
   7320        211402
   410        54005.8
   1800        209469
   8582.5        211398
   520        83948.4
   2000        210551
   9500        211394
   642        104982
   2298.5        211368
   10810        211393
   760        124604
   2645        211389
   12330        211501
   907.5        165230
   3256        211394
   13885        211396
   1032.5        185499
   3895        211391
   20        92.0465
   1154        203106
   4745        211393
   130        4794.01
   1312.5        205947
   5647.5        211387
   250        19269.5
   1500        208148
   6690        211388
   355        38741.5
   1700        209032
   7982.5        211506
   467.5        69110
   1900        209943
   9100        211506
   581        99059.1
   2125        211156
   10025        211506
   693.5        110202
   2445.5        211320
   11545        211508
   837.5        147165
   2941.5        211389
   13045        211510
   970        178587
   3592.5        211397
   14735        211512
   1086.5        192282
   4285        211399
   70        1349.36
   1237.5        205155
   5160        211401
   190        10734.3
   1400        207327
   6157.5        211402
   305        28156.5
   1600        208679
   7320        211517
   410        53786.6
   1800        209473
   8582.5        211522
   520        83597.8
   2000        210673
   9500        211398
   642        104780
   2298.5        211392
   10810        211402
   760        124550
   2645        211393
   12330        211404
   907.5        165231
   3256        211521
   13885        211398
   1032.5        185433
   3895        211411
   20        91.8696
   1154        203106
   4745        211401
   130        4783.12
   1312.5        205988
   5647.5        211528
   250        19217
   1500        208078
   6690        211417
   355        38669.7
   1700        209034
   7982.5        211402
   467.5        68994.1
   1900        209952
   9100        211415
   581        98915.1
   2125        211176
   10025        211544
   693.5        109963
   2445.5        211471
   11545        211417
   837.5        147146
   2941.5        211533
   13045        211411
   970        178521
   3592.5        211551
   14735        211420
   1086.5        192362
   4285        211545
   70        1345.89
   1237.5        205196
   5160        211557
   190        10711.2
   1400        207361
   6157.5        211429
   305        28126
   1600        208703
   7320        211423
   410        53720.9
   1800        209617
   8582.5        211422
   520        83421.3
   2000        210714
   9500        211558
   642        104618
   2298.5        211302
   10810        211572
   760        124302
   2645        211424
   12330        211567
   907.5        165048
   3256        211574
   13885        211564
   1032.5        185394
   3895        211570
   20        91.6688
   1154        203260
   4745        211569
   130        4772.45
   1312.5        206025
   5647.5        211566
   250        19172
   1500        208109
   6690        211577
   355        38502.7
   1700        209071
   7982.5        211579
   467.5        68766.7
   1900        209978
   9100        211581
   581        98815.5
   2125        211200
   10025        211583
   693.5        109779
   2445.5        211369
   11545        211585
   837.5        146938
   2941.5        211440
   14735        211448